"DATE","TIME","SEC","RUNTIME(ms)","PTNUM","acceleration X","acceleration Y","acceleration Z","Geomagnetic X","Geomagnetic Y","Geomagnetic Z","gyro X","gyro Y","gyro Z","Pressure(hPa)","Altitude(m)","Temperature","Humidity","GPSLatitude","GPSLongitude","GPSAltitude"
"20190620","1733","54657","0","0","0.0","0.0","0.0","0.0","0.0","0.0","0.0","0.0","0.0","0.0","0.0","0.0","0.0","35.07499549","129.08593135","16.97760009765625"
"20190620","1733","54725","116","0","0.0","0.0","0.0","0.0","0.0","0.0","0.0","0.0","0.0","0.0","0.0","0.0","0.0","35.07499549","129.08593135","16.97760009765625"
"20190620","1733","54793","223","0","0.96615916","6.2935686","7.413015","28.06325","-12.914156","-39.801487","0.0","0.0","0.0","0.0","0.0","0.0","0.0","35.07499549","129.08593135","16.97760009765625"
"20190620","1733","54861","223","0","0.96615916","6.2935686","7.413015","28.06325","-12.914156","-39.801487","0.0","0.0","0.0","1002.13","92.99","0.0","0.0","35.07499549","129.08593135","16.97760009765625"
"20190620","1733","54929","323","0","0.96615916","6.2935686","7.413015","28.06325","-12.914156","-39.801487","0.02142426","0.034772463","-0.06296593","1002.13","92.99","0.0","0.0","35.07499549","129.08593135","16.97760009765625"
"20190620","1733","54995","439","0","0.96615916","6.2935686","7.413015","28.477518","-12.060417","-39.70863","0.02142426","0.034772463","-0.06296593","1002.13","92.99","0.0","0.0","35.07499549","129.08593135","16.97760009765625"
"20190620","1733","55063","439","0","0.78438294","6.5727377","7.1172523","28.477518","-12.060417","-39.70863","-0.15205412","0.06587853","0.0044654924","1002.13","92.99","0.0","0.0","35.07499549","129.08593135","16.97760009765625"
"20190620","1733","55131","541","0","0.78438294","6.5727377","7.1172523","28.477518","-12.060417","-39.70863","-0.15205412","0.06587853","0.0044654924","1002.13","92.99","0.0","0.0","35.07499549","129.08593135","16.97760009765625"
"20190620","1733","55198","541","0","0.69513154","6.831659","7.6829896","28.678694","-11.285854","-39.153736","-0.15205412","0.06587853","0.0044654924","1002.11","93.16","0.0","0.0","35.07499549","129.08593135","16.97760009765625"
"20190620","1733","55266","669","0","0.69513154","6.831659","7.6829896","28.678694","-11.285854","-39.153736","-0.15205412","0.06587853","0.0044654924","1002.11","93.16","0.0","0.0","35.07499549","129.08593135","16.97760009765625"
"20190620","1733","55333","782","0","0.69513154","6.831659","7.6829896","28.678694","-11.285854","-39.153736","0.10179799","0.053308792","-0.03090101","1002.11","93.16","0.0","0.0","35.07499549","129.08593135","16.97760009765625"
"20190620","1733","55401","782","0","0.10366044","7.056347","6.253297","29.025114","-10.973413","-37.982082","0.10179799","0.053308792","-0.03090101","1002.15","92.83","0.0","0.0","35.07499549","129.08593135","16.97760009765625"
"20190620","1733","55468","892","0","0.10366044","7.056347","6.253297","29.025114","-10.973413","-37.982082","0.10179799","0.053308792","-0.03090101","1002.15","92.83","0.0","0.0","35.07499549","129.08593135","16.97760009765625"
"20190620","1733","55535","892","0","0.10366044","7.056347","6.253297","29.025114","-10.973413","-37.982082","-0.08840502","-0.09992898","-0.008849809","1002.15","92.83","0.0","0.0","35.07499549","129.08593135","16.97760009765625"
"20190620","1733","55602","1008","0","0.10366044","7.056347","6.253297","28.456316","-10.438076","-39.301205","-0.08840502","-0.09992898","-0.008849809","1002.11","93.16","0.0","0.0","35.07499549","129.08593135","16.97760009765625"
"20190620","1733","55669","1109","0","0.2423871","6.973916","6.165301","28.456316","-10.438076","-39.301205","-0.08840502","-0.09992898","-0.008849809","1002.11","93.16","0.0","0.0","35.07499549","129.08593135","16.97760009765625"
"20190620","1733","55737","1109","0","0.2423871","6.973916","6.165301","28.456316","-10.438076","-39.301205","-0.21309613","-0.04437175","0.020181097","1002.11","93.16","0.0","0.0","35.07499549","129.08593135","16.97760009765625"
"20190620","1733","55803","1210","0","0.67952144","7.787635","9.797618","28.791683","-8.735306","-39.8972","-0.21309613","-0.04437175","0.020181097","1002.14","92.91","0.0","0.0","35.07499549","129.08593135","16.97760009765625"
"20190620","1733","55870","1323","0","0.67952144","7.787635","9.797618","28.791683","-8.735306","-39.8972","-0.21309613","-0.04437175","0.020181097","1002.14","92.91","0.0","0.0","35.07499549","129.08593135","16.97760009765625"
"20190620","1733","55937","1323","0","0.67952144","7.787635","9.797618","28.791683","-8.735306","-39.8972","0.40563607","0.06850225","-0.16194215","1002.14","92.91","0.0","0.0","35.07499549","129.08593135","16.97760009765625"
"20190620","1733","56005","1440","0","0.82759285","5.223317","6.9720907","28.682127","-11.67207","-38.770473","0.40563607","0.06850225","-0.16194215","1002.14","92.91","0.0","0.0","35.07499549","129.08593135","16.97760009765625"
"20190620","1733","56073","1440","0","0.82759285","5.223317","6.9720907","28.682127","-11.67207","-38.770473","0.40563607","0.06850225","-0.16194215","1002.14","92.91","0.0","0.0","35.07499549","129.08593135","16.97760009765625"
"20190620","1733","56139","1542","0","0.82759285","5.223317","6.9720907","28.682127","-11.67207","-38.770473","-0.07746212","-0.058528263","-0.10905039","1002.14","92.91","0.0","0.0","35.07499549","129.08593135","16.97760009765625"
"20190620","1733","56207","1643","0","0.82759285","5.223317","6.9720907","28.466574","-11.210625","-39.543247","-0.07746212","-0.058528263","-0.10905039","1002.09","93.33","0.0","0.0","35.07499549","129.08593135","16.97760009765625"
"20190620","1733","56274","1643","0","0.30354327","5.9321356","5.7713747","28.466574","-11.210625","-39.543247","-0.07746212","-0.058528263","-0.10905039","1002.09","93.33","0.0","0.0","35.07499549","129.08593135","16.97760009765625"
"20190620","1733","56342","1759","0","0.30354327","5.9321356","5.7713747","28.466574","-11.210625","-39.543247","-0.24375097","0.031328883","0.049462248","1002.09","93.33","0.0","0.0","35.07499549","129.08593135","16.97760009765625"
"20190620","1733","56409","1759","0","0.54307735","7.9451294","8.798289","28.513613","-9.355877","-39.209774","-0.24375097","0.031328883","0.049462248","1002.11","93.16","0.0","0.0","35.07499549","129.08593135","16.97760009765625"
"20190620","1733","56477","1881","0","0.54307735","7.9451294","8.798289","28.513613","-9.355877","-39.209774","-0.24375097","0.031328883","0.049462248","1002.11","93.16","0.0","0.0","35.07499549","129.08593135","16.97760009765625"
"20190620","1733","56544","1994","0","0.54307735","7.9451294","8.798289","28.954523","-11.205738","-37.209896","0.14485602","0.18318437","0.02474957","1002.11","93.16","0.0","0.0","35.07499549","129.08593135","16.97760009765625"
"20190620","1733","56611","1994","0","0.052890696","5.832975","8.904089","28.954523","-11.205738","-37.209896","0.14485602","0.18318437","0.02474957","1002.1","93.25","0.0","0.0","35.07499549","129.08593135","16.97760009765625"
"20190620","1733","56679","2121","0","0.052890696","5.832975","8.904089","28.954523","-11.205738","-37.209896","0.14485602","0.18318437","0.02474957","1002.1","93.25","0.0","0.0","35.07499549","129.08593135","16.97760009765625"
"20190620","1733","56746","2121","0","0.052890696","5.832975","8.904089","28.954523","-11.205738","-37.209896","0.32701477","-0.052289743","-0.014716869","1002.1","93.25","0.0","0.0","35.07499549","129.08593135","16.97760009765625"
"20190620","1733","56814","2227","0","-0.2810046","5.417968","5.0664797","29.10816","-12.054249","-37.683918","0.32701477","-0.052289743","-0.014716869","1002.08","93.41","0.0","0.0","35.07499549","129.08593135","16.97760009765625"
"20190620","1733","56882","2227","0","-0.2810046","5.417968","5.0664797","29.10816","-12.054249","-37.683918","0.32701477","-0.052289743","-0.014716869","1002.08","93.41","0.0","0.0","35.07499549","129.08593135","16.97760009765625"
"20190620","1733","56950","2337","0","-0.2810046","5.417968","5.0664797","27.76369","-12.144033","-37.778435","-0.14934778","-0.059528373","-0.033982076","1002.08","93.41","0.0","0.0","35.07499549","129.08593135","16.97760009765625"
"20190620","1733","57018","2460","0","-0.2810046","5.417968","5.0664797","27.76369","-12.144033","-37.778435","-0.14934778","-0.059528373","-0.033982076","1002.12","93.08","0.0","0.0","35.07499549","129.08593135","16.97760009765625"
"20190620","1733","57086","2460","0","-0.11072334","7.64505","7.626928","27.76369","-12.144033","-37.778435","-0.14934778","-0.059528373","-0.033982076","1002.12","93.08","0.0","0.0","35.07499549","129.08593135","16.97760009765625"
"20190620","1733","57154","2572","0","-0.11072334","7.64505","7.626928","28.515314","-9.664814","-38.59284","-0.23856491","0.11214125","-0.06876135","1002.12","93.08","0.0","0.0","35.07499549","129.08593135","16.97760009765625"
"20190620","1733","57221","2572","0","-0.11072334","7.64505","7.626928","28.515314","-9.664814","-38.59284","-0.23856491","0.11214125","-0.06876135","1002.11","93.16","0.0","0.0","35.07499549","129.08593135","16.97760009765625"
"20190620","1733","57289","2678","0","0.17741886","6.55262","9.653963","28.515314","-9.664814","-38.59284","-0.23856491","0.11214125","-0.06876135","1002.11","93.16","0.0","0.0","35.07499549","129.08593135","16.97760009765625"
"20190620","1733","57355","2678","0","0.17741886","6.55262","9.653963","27.731543","-9.671898","-37.205624","0.2756898","-0.115343355","-0.022047944","1002.11","93.16","0.0","0.0","35.07499549","129.08593135","16.97760009765625"
"20190620","1733","57424","2812","0","0.20324317","5.1848917","5.2720385","27.731543","-9.671898","-37.205624","0.2756898","-0.115343355","-0.022047944","1002.09","93.33","0.0","0.0","35.07499549","129.08593135","16.97760009765625"
"20190620","1733","57490","2932","0","0.20324317","5.1848917","5.2720385","27.731543","-9.671898","-37.205624","0.2756898","-0.115343355","-0.022047944","1002.09","93.33","0.0","0.0","35.07499549","129.08593135","16.97760009765625"
"20190620","1733","57557","2932","0","0.20324317","5.1848917","5.2720385","29.709415","-9.035505","-37.872845","-0.16122939","0.068949625","0.0080473395","1002.09","93.33","0.0","0.0","35.07499549","129.08593135","16.97760009765625"
"20190620","1733","57625","3051","0","0.20324317","5.1848917","5.2720385","29.709415","-9.035505","-37.872845","-0.16122939","0.068949625","0.0080473395","1002.12","93.08","0.0","0.0","35.07499549","129.08593135","16.97760009765625"
"20190620","1733","57693","3051","0","0.23860629","7.329999","7.6865606","29.709415","-9.035505","-37.872845","-0.16122939","0.068949625","0.0080473395","1002.12","93.08","0.0","0.0","35.07499549","129.08593135","16.97760009765625"
"20190620","1733","57761","3164","0","0.23860629","7.329999","7.6865606","30.626684","-8.872377","-37.394543","-0.13566421","0.19838125","0.07015361","1002.12","93.08","0.0","0.0","35.07499549","129.08593135","16.97760009765625"
"20190620","1733","57828","3265","0","0.23860629","7.329999","7.6865606","30.626684","-8.872377","-37.394543","-0.13566421","0.19838125","0.07015361","1002.12","93.08","0.0","0.0","35.07499549","129.08593135","16.97760009765625"
"20190620","1733","57896","3265","0","-0.6783178","6.599134","9.763618","30.626684","-8.872377","-37.394543","-0.13566421","0.19838125","0.07015361","1002.12","93.08","0.0","0.0","35.07499549","129.08593135","16.97760009765625"
"20190620","1733","57963","3378","0","-0.6783178","6.599134","9.763618","29.027147","-11.436798","-36.901516","0.3307475","-0.11834652","0.06584597","1002.12","93.08","0.0","0.0","35.07499549","129.08593135","16.97760009765625"
"20190620","1733","58030","3378","0","-0.0781787","5.4604025","5.608527","29.027147","-11.436798","-36.901516","0.3307475","-0.11834652","0.06584597","1002.08","93.41","0.0","0.0","35.07499549","129.08593135","16.97760009765625"
"20190620","1733","58098","3494","0","-0.0781787","5.4604025","5.608527","29.027147","-11.436798","-36.901516","0.3307475","-0.11834652","0.06584597","1002.08","93.41","0.0","0.0","35.07499549","129.08593135","16.97760009765625"
"20190620","1733","58166","3606","0","-0.0781787","5.4604025","5.608527","29.382248","-11.2790985","-37.74884","-0.0014028265","-0.05719821","-0.06193097","1002.08","93.41","0.0","0.0","35.07499549","129.08593135","16.97760009765625"
"20190620","1733","58231","3606","0","-0.0781787","5.4604025","5.608527","29.382248","-11.2790985","-37.74884","-0.0014028265","-0.05719821","-0.06193097","1002.06","93.58","0.0","0.0","35.07499549","129.08593135","16.97760009765625"
"20190620","1733","58299","3712","0","-0.5426109","6.891942","6.5163965","29.382248","-11.2790985","-37.74884","-0.0014028265","-0.05719821","-0.06193097","1002.06","93.58","0.0","0.0","35.07499549","129.08593135","16.97760009765625"
"20190620","1733","58367","3813","0","-0.5426109","6.891942","6.5163965","29.274755","-8.0352745","-38.641636","-0.2562683","0.022645455","-0.0065358263","1002.06","93.58","0.0","0.0","35.07499549","129.08593135","16.97760009765625"
"20190620","1733","58435","3813","0","-0.5426109","6.891942","6.5163965","29.274755","-8.0352745","-38.641636","-0.2562683","0.022645455","-0.0065358263","1002.08","93.41","0.0","0.0","35.07499549","129.08593135","16.97760009765625"
"20190620","1733","58502","3931","0","-0.12565479","7.2815857","10.117645","29.274755","-8.0352745","-38.641636","-0.2562683","0.022645455","-0.0065358263","1002.08","93.41","0.0","0.0","35.07499549","129.08593135","16.97760009765625"
"20190620","1733","58568","3931","0","-0.12565479","7.2815857","10.117645","29.209272","-9.1944065","-36.01864","0.15753211","0.021209517","-0.0069604944","1002.08","93.41","0.0","0.0","35.07499549","129.08593135","16.97760009765625"
"20190620","1733","58636","4066","0","0.28796268","4.9977922","5.867918","29.209272","-9.1944065","-36.01864","0.15753211","0.021209517","-0.0069604944","1002.11","93.16","0.0","0.0","35.07499549","129.08593135","16.97760009765625"
"20190620","1733","58703","4066","0","0.28796268","4.9977922","5.867918","29.209272","-9.1944065","-36.01864","0.15753211","0.021209517","-0.0069604944","1002.11","93.16","0.0","0.0","35.07499549","129.08593135","16.97760009765625"
"20190620","1733","58770","4167","0","0.28796268","4.9977922","5.867918","28.583368","-9.586838","-38.047993","-0.03624029","-0.0050474163","0.014186185","1002.11","93.16","0.0","0.0","35.07499549","129.08593135","16.97760009765625"
"20190620","1733","58838","4271","0","0.28796268","4.9977922","5.867918","28.583368","-9.586838","-38.047993","-0.03624029","-0.0050474163","0.014186185","1002.09","93.33","0.0","0.0","35.07499549","129.08593135","16.97760009765625"
"20190620","1733","58906","4271","0","0.20951998","6.6139574","6.6712775","28.583368","-9.586838","-38.047993","-0.03624029","-0.0050474163","0.014186185","1002.09","93.33","0.0","0.0","35.07499549","129.08593135","16.97760009765625"
"20190620","1733","58974","4384","0","0.20951998","6.6139574","6.6712775","29.484951","-8.187656","-37.399662","-0.15018325","0.2187377","0.09525912","1002.09","93.33","0.0","0.0","35.07499549","129.08593135","16.97760009765625"
"20190620","1733","59041","4484","0","0.20951998","6.6139574","6.6712775","29.484951","-8.187656","-37.399662","-0.15018325","0.2187377","0.09525912","1002.1","93.25","0.0","0.0","35.07499549","129.08593135","16.97760009765625"
"20190620","1733","59109","4484","0","-0.7060714","7.1858435","10.154634","29.768747","-8.416691","-36.70084","-0.15018325","0.2187377","0.09525912","1002.1","93.25","0.0","0.0","35.07499549","129.08593135","16.97760009765625"
"20190620","1733","59176","4590","0","-0.7060714","7.1858435","10.154634","29.768747","-8.416691","-36.70084","-0.15018325","0.2187377","0.09525912","1002.1","93.25","0.0","0.0","35.07499549","129.08593135","16.97760009765625"
"20190620","1733","59244","4691","0","0.0533565","5.0317373","6.0199814","29.768747","-8.416691","-36.70084","0.10047216","-0.19404987","0.058934964","1002.12","93.08","0.0","0.0","35.07499549","129.08593135","16.97760009765625"
"20190620","1733","59312","4691","0","0.0533565","5.0317373","6.0199814","28.372927","-10.0522","-36.969944","0.10047216","-0.19404987","0.058934964","1002.12","93.08","0.0","0.0","35.07499549","129.08593135","16.97760009765625"
"20190620","1733","59379","4819","0","0.0533565","5.0317373","6.0199814","28.372927","-10.0522","-36.969944","0.014131453","-0.09790785","0.017444283","1002.12","93.08","0.0","0.0","35.07499549","129.08593135","16.97760009765625"
"20190620","1733","59446","4819","0","0.0533565","5.0317373","6.0199814","28.372927","-10.0522","-36.969944","0.014131453","-0.09790785","0.017444283","1002.09","93.33","0.0","0.0","35.07499549","129.08593135","16.97760009765625"
"20190620","1733","59514","4935","0","-0.05572643","6.552947","6.905997","28.34995","-7.966482","-37.720676","0.014131453","-0.09790785","0.017444283","1002.09","93.33","0.0","0.0","35.07499549","129.08593135","16.97760009765625"
"20190620","1733","59582","5036","0","-0.05572643","6.552947","6.905997","28.34995","-7.966482","-37.720676","-0.16115874","-0.017638234","-0.20657931","1002.09","93.33","0.0","0.0","35.07499549","129.08593135","16.97760009765625"
"20190620","1733","59650","5036","0","-0.05572643","6.552947","6.905997","28.34995","-7.966482","-37.720676","-0.16115874","-0.017638234","-0.20657931","1002.09","93.33","0.0","0.0","35.07499549","129.08593135","16.97760009765625"
"20190620","1733","59718","5153","0","-0.08086763","7.2429566","9.967636","29.407068","-7.5703144","-37.54823","-0.16115874","-0.017638234","-0.20657931","1002.09","93.33","0.0","0.0","35.07499549","129.08593135","16.97760009765625"
"20190620","1733","59785","5153","0","-0.08086763","7.2429566","9.967636","29.407068","-7.5703144","-37.54823","0.22366606","0.030301707","-0.02569552","1002.09","93.33","0.0","0.0","35.07499549","129.08593135","16.97760009765625"
"20190620","1733","59852","5269","0","0.10860075","5.005065","5.890686","29.407068","-7.5703144","-37.54823","0.22366606","0.030301707","-0.02569552","1002.1","93.25","0.0","0.0","35.07499549","129.08593135","16.97760009765625"
"20190620","1733","59920","5269","0","0.10860075","5.005065","5.890686","29.554514","-8.573048","-35.619083","0.22366606","0.030301707","-0.02569552","1002.1","93.25","0.0","0.0","35.07499549","129.08593135","16.97760009765625"
"20190620","1733","59988","5383","0","0.10860075","5.005065","5.890686","29.554514","-8.573048","-35.619083","-0.06929968","0.044932686","0.08451583","1002.1","93.25","0.0","0.0","35.07499549","129.08593135","16.97760009765625"
"20190620","1734","00055","5501","0","0.29840797","6.4221663","7.0633","29.554514","-8.573048","-35.619083","-0.06929968","0.044932686","0.08451583","1002.08","93.41","0.0","0.0","35.07499549","129.08593135","16.97760009765625"
"20190620","1734","00123","5501","0","0.29840797","6.4221663","7.0633","30.36827","-5.320671","-36.656094","-0.06929968","0.044932686","0.08451583","1002.08","93.41","0.0","0.0","35.07499549","129.08593135","16.97760009765625"
"20190620","1734","00190","5626","0","0.29840797","6.4221663","7.0633","30.36827","-5.320671","-36.656094","-0.21657379","0.16589598","0.07487693","1002.08","93.41","0.0","0.0","35.07499549","129.08593135","16.97760009765625"
"20190620","1734","00256","5626","0","-0.6802425","7.1724653","10.470998","30.36827","-5.320671","-36.656094","-0.21657379","0.16589598","0.07487693","1002.13","92.99","0.0","0.0","35.07499549","129.08593135","16.97760009765625"
"20190620","1734","00324","5748","0","-0.6802425","7.1724653","10.470998","30.18374","-8.026293","-35.139507","-0.21657379","0.16589598","0.07487693","1002.13","92.99","0.0","0.0","35.07499549","129.08593135","16.97760009765625"
"20190620","1734","00391","5748","0","-0.6802425","7.1724653","10.470998","30.18374","-8.026293","-35.139507","0.30306035","-0.0011879839","0.17602542","1002.13","92.99","0.0","0.0","35.07499549","129.08593135","16.97760009765625"
"20190620","1734","00459","5862","0","-0.6802425","7.1724653","10.470998","30.18374","-8.026293","-35.139507","0.30306035","-0.0011879839","0.17602542","1002.14","92.91","0.0","0.0","35.07499549","129.08593135","16.97760009765625"
"20190620","1734","00527","5963","0","-0.14508012","4.953293","5.590788","29.99633","-10.114061","-35.01196","0.30306035","-0.0011879839","0.17602542","1002.14","92.91","0.0","0.0","35.07499549","129.08593135","16.97760009765625"
"20190620","1734","00593","5963","0","-0.14508012","4.953293","5.590788","29.99633","-10.114061","-35.01196","-0.10009005","-0.020413386","0.068275765","1002.14","92.91","0.0","0.0","35.07499549","129.08593135","16.97760009765625"
"20190620","1734","00661","5963","0","-0.22040305","6.494775","6.6459985","29.99633","-10.114061","-35.01196","-0.10009005","-0.020413386","0.068275765","1002.07","93.5","0.0","0.0","35.07499549","129.08593135","16.97760009765625"
"20190620","1734","00728","6120","0","-0.22040305","6.494775","6.6459985","29.415377","-8.651672","-36.08719","-0.10009005","-0.020413386","0.068275765","1002.07","93.5","0.0","0.0","35.07499549","129.08593135","16.97760009765625"
"20190620","1734","00795","6227","0","-0.22040305","6.494775","6.6459985","29.415377","-8.651672","-36.08719","-0.10168932","-0.0026209704","-0.055879038","1002.06","93.58","0.0","0.0","35.07499549","129.08593135","16.97760009765625"
"20190620","1734","00862","6227","0","0.43784863","7.150084","10.470682","29.415377","-8.651672","-36.08719","-0.10168932","-0.0026209704","-0.055879038","1002.06","93.58","0.0","0.0","35.07499549","129.08593135","16.97760009765625"
"20190620","1734","00929","6338","0","0.43784863","7.150084","10.470682","28.838518","-7.8843975","-35.851887","-0.10168932","-0.0026209704","-0.055879038","1002.06","93.58","0.0","0.0","35.07499549","129.08593135","16.97760009765625"
"20190620","1734","00997","6440","0","0.43784863","7.150084","10.470682","28.838518","-7.8843975","-35.851887","0.26063412","-0.1022718","-0.13070752","1002.07","93.5","0.0","0.0","35.07499549","129.08593135","16.97760009765625"
"20190620","1734","01065","6440","0","0.43784863","7.150084","10.470682","28.838518","-7.8843975","-35.851887","0.26063412","-0.1022718","-0.13070752","1002.07","93.5","0.0","0.0","35.07499549","129.08593135","16.97760009765625"
"20190620","1734","01131","6547","0","0.30673522","5.116532","6.3083982","28.714445","-9.276272","-36.025463","0.26063412","-0.1022718","-0.13070752","1002.07","93.5","0.0","0.0","35.07499549","129.08593135","16.97760009765625"
"20190620","1734","01198","6547","0","0.30673522","5.116532","6.3083982","28.714445","-9.276272","-36.025463","-0.022088205","-0.088047974","-0.118402004","1002.05","93.67","0.0","0.0","35.07499549","129.08593135","16.97760009765625"
"20190620","1734","01266","6666","0","0.30673522","5.116532","6.3083982","28.714445","-9.276272","-36.025463","-0.022088205","-0.088047974","-0.118402004","1002.05","93.67","0.0","0.0","35.07499549","129.08593135","16.97760009765625"
"20190620","1734","01333","6666","0","0.1565404","6.0476284","6.4027443","29.125635","-7.9591103","-36.70285","-0.022088205","-0.088047974","-0.118402004","1002.05","93.67","0.0","0.0","35.07499549","129.08593135","16.97760009765625"
"20190620","1734","01401","6790","0","0.1565404","6.0476284","6.4027443","29.125635","-7.9591103","-36.70285","-0.19652651","0.21454272","0.05475827","1002.05","93.67","0.0","0.0","35.07499549","129.08593135","16.97760009765625"
"20190620","1734","01470","6911","0","-0.09142753","6.8962812","9.849433","29.125635","-7.9591103","-36.70285","-0.19652651","0.21454272","0.05475827","1002.05","93.67","0.0","0.0","35.07499549","129.08593135","16.97760009765625"
"20190620","1734","01537","6911","0","-0.09142753","6.8962812","9.849433","30.90842","-8.869686","-36.925686","-0.19652651","0.21454272","0.05475827","1002.05","93.67","0.0","0.0","35.07499549","129.08593135","16.97760009765625"
"20190620","1734","01605","7023","0","-0.09142753","6.8962812","9.849433","30.90842","-8.869686","-36.925686","0.08880293","0.06562143","0.17540108","1002.07","93.5","0.0","0.0","35.07499549","129.08593135","16.97760009765625"
"20190620","1734","01672","7023","0","-0.09142753","6.8962812","9.849433","30.141275","-10.190079","-35.709446","0.08880293","0.06562143","0.17540108","1002.07","93.5","0.0","0.0","35.07499549","129.08593135","16.97760009765625"
"20190620","1734","01740","7153","0","-0.42797643","5.075322","7.9075403","30.141275","-10.190079","-35.709446","0.08880293","0.06562143","0.17540108","1002.07","93.5","0.0","0.0","35.07499549","129.08593135","16.97760009765625"
"20190620","1734","01806","7258","0","-0.42797643","5.075322","7.9075403","30.141275","-10.190079","-35.709446","0.010187716","0.01384737","0.05896628","1002.06","93.58","0.0","0.0","35.07499549","129.08593135","16.97760009765625"
"20190620","1734","01874","7258","0","-0.42797643","5.075322","7.9075403","30.784716","-10.802109","-35.243805","0.010187716","0.01384737","0.05896628","1002.06","93.58","0.0","0.0","35.07499549","129.08593135","16.97760009765625"
"20190620","1734","01941","7379","0","-0.14903495","5.3475375","7.7759094","30.784716","-10.802109","-35.243805","0.010187716","0.01384737","0.05896628","1002.06","93.58","0.0","0.0","35.07499549","129.08593135","16.97760009765625"
