"DATE","TIME","SEC","RUNTIME(ms)","PTNUM","acceleration X","acceleration Y","acceleration Z","Geomagnetic X","Geomagnetic Y","Geomagnetic Z","gyro X","gyro Y","gyro Z","Pressure(hPa)","Altitude(m)","Temperature","Humidity","GPSLatitude","GPSLongitude","GPSAltitude"
"20190620","1803","50740","0","0","0.48281312","8.989644","4.0444508","14.601955","-48.385162","2.2800775","0.043732107","-0.0070098136","0.009120206","1002.32","91.4","0.0","0.0","35.07499549","129.08593135","16.97760009765625"
"20190620","1803","50853","0","0","0.48281312","8.989644","4.0444508","14.601955","-48.385162","2.2800775","-0.045272127","0.05943872","-0.027070325","1002.34","91.23","0.0","0.0","35.07499549","129.08593135","16.97760009765625"
"20190620","1803","50920","135","0","0.43656787","9.008546","4.295203","14.601955","-48.385162","2.2800775","-0.045272127","0.05943872","-0.027070325","1002.34","91.23","0.0","0.0","35.07499549","129.08593135","16.97760009765625"
"20190620","1803","50987","135","0","0.43656787","9.008546","4.295203","15.095819","-48.62789","1.6467452","-0.045272127","0.05943872","-0.027070325","1002.31","91.48","0.0","0.0","35.07499549","129.08593135","16.97760009765625"
"20190620","1803","51054","268","0","0.43656787","9.008546","4.295203","15.095819","-48.62789","1.6467452","-0.019627376","0.011983927","0.014822949","1002.31","91.48","0.0","0.0","35.07499549","129.08593135","16.97760009765625"
"20190620","1803","51121","268","0","0.43656787","9.008546","4.295203","15.095819","-48.62789","1.6467452","-0.019627376","0.011983927","0.014822949","1002.31","91.48","0.0","0.0","35.07499549","129.08593135","16.97760009765625"
"20190620","1803","51189","268","0","0.46444193","8.991728","4.026416","14.9576025","-48.459137","2.11268","-0.019627376","0.011983927","0.014822949","1002.32","91.4","0.0","0.0","35.07499549","129.08593135","16.97760009765625"
"20190620","1803","51255","441","0","0.46444193","8.991728","4.026416","14.9576025","-48.459137","2.11268","-0.012663395","-0.023353226","0.025848377","1002.32","91.4","0.0","0.0","35.07499549","129.08593135","16.97760009765625"
"20190620","1803","51323","441","0","0.37914634","9.04764","4.110616","14.9576025","-48.459137","2.11268","-0.012663395","-0.023353226","0.025848377","1002.32","91.4","0.0","0.0","35.07499549","129.08593135","16.97760009765625"
"20190620","1803","51389","593","0","0.37914634","9.04764","4.110616","14.61454","-48.70188","1.7953444","-0.012663395","-0.023353226","0.025848377","1002.32","91.4","0.0","0.0","35.07499549","129.08593135","16.97760009765625"
"20190620","1803","51456","593","0","0.37914634","9.04764","4.110616","14.61454","-48.70188","1.7953444","-0.038443148","0.08056392","0.028565252","1002.32","91.4","0.0","0.0","35.07499549","129.08593135","16.97760009765625"
"20190620","1803","51523","593","0","0.41745028","9.205851","3.8617592","14.61454","-48.70188","1.7953444","-0.038443148","0.08056392","0.028565252","1002.32","91.4","0.0","0.0","35.07499549","129.08593135","16.97760009765625"
"20190620","1803","51590","768","0","0.41745028","9.205851","3.8617592","14.185221","-48.76778","1.2076011","-0.038443148","0.08056392","0.028565252","1002.32","91.4","0.0","0.0","35.07499549","129.08593135","16.97760009765625"
"20190620","1803","51658","768","0","0.41745028","9.205851","3.8617592","14.185221","-48.76778","1.2076011","-0.014688815","0.13193816","0.021509161","1002.32","91.4","0.0","0.0","35.07499549","129.08593135","16.97760009765625"
"20190620","1803","51724","916","0","0.41745028","9.205851","3.8617592","14.185221","-48.76778","1.2076011","-0.014688815","0.13193816","0.021509161","1002.32","91.4","0.0","0.0","35.07499549","129.08593135","16.97760009765625"
"20190620","1803","51791","916","0","0.3274569","9.249315","3.0723243","14.004915","-48.545372","1.3555951","-0.014688815","0.13193816","0.021509161","1002.33","91.31","0.0","0.0","35.07499549","129.08593135","16.97760009765625"
"20190620","1803","51858","1064","0","0.3274569","9.249315","3.0723243","14.004915","-48.545372","1.3555951","-0.015222502","-0.018315297","0.07764981","1002.33","91.31","0.0","0.0","35.07499549","129.08593135","16.97760009765625"
"20190620","1803","51925","1064","0","0.3274569","9.249315","3.0723243","14.004915","-48.545372","1.3555951","-0.015222502","-0.018315297","0.07764981","1002.33","91.31","0.0","0.0","35.07499549","129.08593135","16.97760009765625"
"20190620","1803","51993","1064","0","0.33952904","9.869411","3.0935178","13.401756","-48.589546","1.8289776","-0.015222502","-0.018315297","0.07764981","1002.36","91.06","0.0","0.0","35.07499549","129.08593135","16.97760009765625"
"20190620","1803","52060","1230","0","0.33952904","9.869411","3.0935178","13.401756","-48.589546","1.8289776","0.05942478","0.06738709","-0.032470506","1002.36","91.06","0.0","0.0","35.07499549","129.08593135","16.97760009765625"
"20190620","1803","52127","1230","0","0.33952904","9.869411","3.0935178","13.870209","-48.41504","3.0236669","0.05942478","0.06738709","-0.032470506","1002.36","91.06","0.0","0.0","35.07499549","129.08593135","16.97760009765625"
"20190620","1803","52194","1408","0","0.40501863","9.933125","4.4896903","13.870209","-48.41504","3.0236669","0.05942478","0.06738709","-0.032470506","1002.34","91.23","0.0","0.0","35.07499549","129.08593135","16.97760009765625"
"20190620","1803","52261","1408","0","0.40501863","9.933125","4.4896903","13.870209","-48.41504","3.0236669","0.05942478","0.06738709","-0.032470506","1002.34","91.23","0.0","0.0","35.07499549","129.08593135","16.97760009765625"
"20190620","1803","52330","1548","0","0.40501863","9.933125","4.4896903","13.149143","-47.185677","2.3318763","0.021207282","-0.059323847","-0.037129607","1002.34","91.23","0.0","0.0","35.07499549","129.08593135","16.97760009765625"
"20190620","1803","52398","1548","0","0.67559314","7.8349433","4.1243496","13.149143","-47.185677","2.3318763","0.021207282","-0.059323847","-0.037129607","1002.37","90.98","0.0","0.0","35.07499549","129.08593135","16.97760009765625"
"20190620","1803","52464","1687","0","0.67559314","7.8349433","4.1243496","13.149143","-47.185677","2.3318763","0.010074232","-0.04861601","-0.01012389","1002.37","90.98","0.0","0.0","35.07499549","129.08593135","16.97760009765625"
"20190620","1803","52531","1687","0","0.67559314","7.8349433","4.1243496","13.345608","-45.793198","2.0408025","0.010074232","-0.04861601","-0.01012389","1002.37","90.98","0.0","0.0","35.07499549","129.08593135","16.97760009765625"
"20190620","1803","52599","1687","0","0.65952575","8.840748","3.1247692","13.345608","-45.793198","2.0408025","0.010074232","-0.04861601","-0.01012389","1002.34","91.23","0.0","0.0","35.07499549","129.08593135","16.97760009765625"
"20190620","1803","52667","1850","0","0.65952575","8.840748","3.1247692","13.345608","-45.793198","2.0408025","-0.042604096","0.016420268","-0.028658198","1002.34","91.23","0.0","0.0","35.07499549","129.08593135","16.97760009765625"
"20190620","1803","52733","1850","0","0.65952575","8.840748","3.1247692","13.852137","-46.7928","2.5001092","-0.042604096","0.016420268","-0.028658198","1002.34","91.23","0.0","0.0","35.07499549","129.08593135","16.97760009765625"
"20190620","1803","52801","1988","0","0.5671476","10.4034195","5.173248","13.852137","-46.7928","2.5001092","-0.042604096","0.016420268","-0.028658198","1002.37","90.98","0.0","0.0","35.07499549","129.08593135","16.97760009765625"
"20190620","1803","52868","1988","0","0.5671476","10.4034195","5.173248","13.852137","-46.7928","2.5001092","-0.042604096","0.016420268","-0.028658198","1002.37","90.98","0.0","0.0","35.07499549","129.08593135","16.97760009765625"
"20190620","1803","52936","2157","0","0.5671476","10.4034195","5.173248","13.852137","-46.7928","2.5001092","-0.042604096","0.016420268","-0.028658198","1002.37","90.98","0.0","0.0","35.07499549","129.08593135","16.97760009765625"
"20190620","1803","53003","2157","0","0.06936908","7.9474945","3.818037","13.852137","-46.7928","2.5001092","-0.042604096","0.016420268","-0.028658198","1002.39","90.81","0.0","0.0","35.07499549","129.08593135","16.97760009765625"
"20190620","1803","53071","2157","0","0.06936908","7.9474945","3.818037","14.122429","-46.434822","2.9731603","-0.042604096","0.016420268","-0.028658198","1002.39","90.81","0.0","0.0","35.07499549","129.08593135","16.97760009765625"
"20190620","1803","53137","2320","0","0.08430282","8.613876","3.5211596","14.122429","-46.434822","2.9731603","-0.015681574","0.04199031","0.01374174","1002.39","90.81","0.0","0.0","35.07499549","129.08593135","16.97760009765625"
"20190620","1803","53205","2320","0","0.08430282","8.613876","3.5211596","14.122429","-46.434822","2.9731603","-0.015681574","0.04199031","0.01374174","1002.38","90.89","0.0","0.0","35.07499549","129.08593135","16.97760009765625"
"20190620","1803","53273","2489","0","0.08430282","8.613876","3.5211596","14.409618","-46.316174","3.5055614","-0.015681574","0.04199031","0.01374174","1002.38","90.89","0.0","0.0","35.07499549","129.08593135","16.97760009765625"
"20190620","1803","53340","2489","0","0.08430282","8.613876","3.5211596","14.409618","-46.316174","3.5055614","0.04956476","0.04880993","-0.0032745593","1002.38","90.89","0.0","0.0","35.07499549","129.08593135","16.97760009765625"
"20190620","1803","53407","2641","0","0.7574161","10.29708","3.8637524","14.70818","-46.521942","3.941049","0.04956476","0.04880993","-0.0032745593","1002.37","90.98","0.0","0.0","35.07499549","129.08593135","16.97760009765625"
"20190620","1803","53474","2641","0","0.7574161","10.29708","3.8637524","14.70818","-46.521942","3.941049","0.04956476","0.04880993","-0.0032745593","1002.37","90.98","0.0","0.0","35.07499549","129.08593135","16.97760009765625"
"20190620","1803","53541","2641","0","0.7574161","10.29708","3.8637524","14.70818","-46.521942","3.941049","-0.06990559","0.04007671","-0.16125187","1002.37","90.98","0.0","0.0","35.07499549","129.08593135","16.97760009765625"
"20190620","1803","53608","2816","0","0.7574161","10.29708","3.8637524","14.70818","-46.521942","3.941049","-0.06990559","0.04007671","-0.16125187","1002.37","90.98","0.0","0.0","35.07499549","129.08593135","16.97760009765625"
"20190620","1803","53675","2816","0","0.31210116","8.618357","5.2970095","15.510267","-46.1127","4.071856","0.1344109","-0.08956393","0.008339377","1002.37","90.98","0.0","0.0","35.07499549","129.08593135","16.97760009765625"
"20190620","1803","53743","2816","0","0.31210116","8.618357","5.2970095","15.510267","-46.1127","4.071856","0.1344109","-0.08956393","0.008339377","1002.37","90.98","0.0","0.0","35.07499549","129.08593135","16.97760009765625"
"20190620","1803","53810","2992","0","0.34754342","8.040349","2.9243522","15.562498","-45.834023","4.378444","0.1344109","-0.08956393","0.008339377","1002.4","90.73","0.0","0.0","35.07499549","129.08593135","16.97760009765625"
"20190620","1803","53877","2992","0","0.34754342","8.040349","2.9243522","15.562498","-45.834023","4.378444","-0.12072106","-0.00798891","0.052416284","1002.4","90.73","0.0","0.0","35.07499549","129.08593135","16.97760009765625"
"20190620","1803","53945","3145","0","0.34754342","8.040349","2.9243522","15.562498","-45.834023","4.378444","-0.12072106","-0.00798891","0.052416284","1002.4","90.73","0.0","0.0","35.07499549","129.08593135","16.97760009765625"
"20190620","1803","54011","3145","0","0.9248602","10.343185","4.993026","15.417671","-45.92821","3.5531936","-0.12072106","-0.00798891","0.052416284","1002.36","91.06","0.0","0.0","35.07499549","129.08593135","16.97760009765625"
"20190620","1803","54079","3311","0","0.9248602","10.343185","4.993026","15.417671","-45.92821","3.5531936","0.0154792825","0.010636431","-0.023530899","1002.36","91.06","0.0","0.0","35.07499549","129.08593135","16.97760009765625"
"20190620","1803","54146","3311","0","0.9248602","10.343185","4.993026","15.417671","-45.92821","3.5531936","0.0154792825","0.010636431","-0.023530899","1002.36","91.06","0.0","0.0","35.07499549","129.08593135","16.97760009765625"
"20190620","1803","54214","3311","0","-0.33902228","8.387263","4.231559","15.884174","-45.537422","4.5410123","0.0154792825","0.010636431","-0.023530899","1002.35","91.15","0.0","0.0","35.07499549","129.08593135","16.97760009765625"
"20190620","1803","54281","3479","0","-0.33902228","8.387263","4.231559","15.884174","-45.537422","4.5410123","0.03220275","0.02816217","-0.0021443001","1002.35","91.15","0.0","0.0","35.07499549","129.08593135","16.97760009765625"
"20190620","1803","54349","3479","0","-0.33902228","8.387263","4.231559","15.884174","-45.537422","4.5410123","0.03220275","0.02816217","-0.0021443001","1002.35","91.15","0.0","0.0","35.07499549","129.08593135","16.97760009765625"
"20190620","1803","54415","3637","0","-0.15671901","8.322254","3.350816","15.55776","-45.409157","4.2439084","0.03220275","0.02816217","-0.0021443001","1002.36","91.06","0.0","0.0","35.07499549","129.08593135","16.97760009765625"
"20190620","1803","54483","3637","0","-0.15671901","8.322254","3.350816","15.55776","-45.409157","4.2439084","0.016409047","-0.136845","0.14017634","1002.36","91.06","0.0","0.0","35.07499549","129.08593135","16.97760009765625"
"20190620","1803","54549","3637","0","-0.15671901","8.322254","3.350816","15.55776","-45.409157","4.2439084","0.016409047","-0.136845","0.14017634","1002.36","91.06","0.0","0.0","35.07499549","129.08593135","16.97760009765625"
"20190620","1803","54617","3796","0","0.97565204","10.255213","4.378022","15.772562","-45.716133","4.677176","0.016409047","-0.136845","0.14017634","1002.33","91.31","0.0","0.0","35.07499549","129.08593135","16.97760009765625"
"20190620","1803","54683","3796","0","0.97565204","10.255213","4.378022","15.772562","-45.716133","4.677176","0.013744718","-0.065123975","-0.14187737","1002.33","91.31","0.0","0.0","35.07499549","129.08593135","16.97760009765625"
"20190620","1803","54750","3967","0","0.97565204","10.255213","4.378022","15.772562","-45.716133","4.677176","0.013744718","-0.065123975","-0.14187737","1002.33","91.31","0.0","0.0","35.07499549","129.08593135","16.97760009765625"
"20190620","1803","54817","3967","0","0.3981871","8.265039","4.617897","17.415464","-45.06732","4.572531","0.013744718","-0.065123975","-0.14187737","1002.36","91.06","0.0","0.0","35.07499549","129.08593135","16.97760009765625"
"20190620","1803","54884","4107","0","0.3981871","8.265039","4.617897","17.415464","-45.06732","4.572531","-0.048414856","0.031844273","-0.08885217","1002.36","91.06","0.0","0.0","35.07499549","129.08593135","16.97760009765625"
"20190620","1803","54951","4107","0","0.3981871","8.265039","4.617897","17.415464","-45.06732","4.572531","-0.048414856","0.031844273","-0.08885217","1002.36","91.06","0.0","0.0","35.07499549","129.08593135","16.97760009765625"
"20190620","1803","55019","4238","0","0.3981871","8.265039","4.617897","17.586075","-45.227917","4.976029","-0.048414856","0.031844273","-0.08885217","1002.36","91.06","0.0","0.0","35.07499549","129.08593135","16.97760009765625"
"20190620","1803","55085","4238","0","0.10090355","8.516849","3.356641","17.586075","-45.227917","4.976029","-0.048414856","0.031844273","-0.08885217","1002.36","91.06","0.0","0.0","35.07499549","129.08593135","16.97760009765625"
"20190620","1803","55153","4238","0","0.10090355","8.516849","3.356641","17.354885","-45.732117","6.0455947","0.021846902","0.11640668","0.05815633","1002.36","91.06","0.0","0.0","35.07499549","129.08593135","16.97760009765625"
"20190620","1803","55219","4392","0","0.613646","10.366898","4.7593975","17.354885","-45.732117","6.0455947","0.021846902","0.11640668","0.05815633","1002.36","91.06","0.0","0.0","35.07499549","129.08593135","16.97760009765625"
"20190620","1803","55286","4392","0","0.613646","10.366898","4.7593975","17.354885","-45.732117","6.0455947","0.021846902","0.11640668","0.05815633","1002.36","91.06","0.0","0.0","35.07499549","129.08593135","16.97760009765625"
"20190620","1803","55353","4571","0","0.613646","10.366898","4.7593975","17.354885","-45.732117","6.0455947","-0.016876785","0.031108178","0.10380452","1002.37","90.98","0.0","0.0","35.07499549","129.08593135","16.97760009765625"
"20190620","1803","55420","4571","0","-0.1870828","8.419645","4.2870255","16.50727","-46.18797","6.9843535","-0.016876785","0.031108178","0.10380452","1002.37","90.98","0.0","0.0","35.07499549","129.08593135","16.97760009765625"
"20190620","1803","55487","4716","0","-0.1870828","8.419645","4.2870255","16.50727","-46.18797","6.9843535","0.013135687","0.050791398","0.09062354","1002.37","90.98","0.0","0.0","35.07499549","129.08593135","16.97760009765625"
"20190620","1803","55554","4716","0","-0.1870828","8.419645","4.2870255","16.50727","-46.18797","6.9843535","0.013135687","0.050791398","0.09062354","1002.37","90.98","0.0","0.0","35.07499549","129.08593135","16.97760009765625"
"20190620","1803","55621","4716","0","0.48593822","8.204704","3.9691727","15.445478","-47.534393","7.444241","0.013135687","0.050791398","0.09062354","1002.37","90.98","0.0","0.0","35.07499549","129.08593135","16.97760009765625"
"20190620","1803","55689","4890","0","0.48593822","8.204704","3.9691727","15.445478","-47.534393","7.444241","0.08783593","-0.018714558","-0.037366245","1002.37","90.98","0.0","0.0","35.07499549","129.08593135","16.97760009765625"
"20190620","1803","55756","4890","0","0.48593822","8.204704","3.9691727","15.783148","-48.041115","7.8765244","0.08783593","-0.018714558","-0.037366245","1002.37","90.98","0.0","0.0","35.07499549","129.08593135","16.97760009765625"
"20190620","1803","55823","5053","0","0.30761835","10.312691","3.7388012","15.783148","-48.041115","7.8765244","0.08783593","-0.018714558","-0.037366245","1002.37","90.98","0.0","0.0","35.07499549","129.08593135","16.97760009765625"
"20190620","1803","55890","5053","0","0.30761835","10.312691","3.7388012","15.783148","-48.041115","7.8765244","-0.049610734","-0.006355605","-0.03395614","1002.37","90.98","0.0","0.0","35.07499549","129.08593135","16.97760009765625"
"20190620","1803","55957","5053","0","0.30761835","10.312691","3.7388012","15.944849","-48.425964","7.532368","-0.049610734","-0.006355605","-0.03395614","1002.39","90.81","0.0","0.0","35.07499549","129.08593135","16.97760009765625"
"20190620","1803","56025","5235","0","0.75589377","8.488783","4.5493994","15.944849","-48.425964","7.532368","-0.049610734","-0.006355605","-0.03395614","1002.39","90.81","0.0","0.0","35.07499549","129.08593135","16.97760009765625"
"20190620","1803","56091","5235","0","0.75589377","8.488783","4.5493994","15.944849","-48.425964","7.532368","0.010755295","0.015477912","-0.04784418","1002.39","90.81","0.0","0.0","35.07499549","129.08593135","16.97760009765625"
"20190620","1803","56159","5390","0","0.75589377","8.488783","4.5493994","16.613043","-49.11513","7.2370286","0.010755295","0.015477912","-0.04784418","1002.32","91.4","0.0","0.0","35.07499549","129.08593135","16.97760009765625"
"20190620","1803","56226","5390","0","0.15994322","8.317198","3.6031163","16.613043","-49.11513","7.2370286","0.010755295","0.015477912","-0.04784418","1002.32","91.4","0.0","0.0","35.07499549","129.08593135","16.97760009765625"
"20190620","1803","56293","5390","0","0.15994322","8.317198","3.6031163","16.613043","-49.11513","7.2370286","0.059916135","0.053882644","0.018523037","1002.32","91.4","0.0","0.0","35.07499549","129.08593135","16.97760009765625"
"20190620","1803","56361","5565","0","0.15994322","8.317198","3.6031163","15.539194","-49.372356","7.322108","0.059916135","0.053882644","0.018523037","1002.32","91.4","0.0","0.0","35.07499549","129.08593135","16.97760009765625"
"20190620","1803","56427","5565","0","0.2464122","10.300774","4.5010214","15.539194","-49.372356","7.322108","0.059916135","0.053882644","0.018523037","1002.36","91.06","0.0","0.0","35.07499549","129.08593135","16.97760009765625"
"20190620","1803","56494","5565","0","0.2464122","10.300774","4.5010214","15.539194","-49.372356","7.322108","0.05517463","0.10991747","-0.033593673","1002.36","91.06","0.0","0.0","35.07499549","129.08593135","16.97760009765625"
"20190620","1803","56561","5752","0","0.2464122","10.300774","4.5010214","15.355474","-49.4513","7.474154","0.05517463","0.10991747","-0.033593673","1002.34","91.23","0.0","0.0","35.07499549","129.08593135","16.97760009765625"
"20190620","1803","56629","5752","0","0.1258885","8.443662","4.0981174","15.355474","-49.4513","7.474154","0.05517463","0.10991747","-0.033593673","1002.34","91.23","0.0","0.0","35.07499549","129.08593135","16.97760009765625"
"20190620","1803","56695","5919","0","0.1258885","8.443662","4.0981174","15.355474","-49.4513","7.474154","-0.17471027","-0.049923345","0.0878743","1002.34","91.23","0.0","0.0","35.07499549","129.08593135","16.97760009765625"
"20190620","1803","56762","5919","0","0.1258885","8.443662","4.0981174","14.521743","-49.830116","6.1097465","-0.17471027","-0.049923345","0.0878743","1002.34","91.23","0.0","0.0","35.07499549","129.08593135","16.97760009765625"
"20190620","1803","56829","5919","0","0.038273692","8.335735","3.6790478","14.521743","-49.830116","6.1097465","-0.17471027","-0.049923345","0.0878743","1002.34","91.23","0.0","0.0","35.07499549","129.08593135","16.97760009765625"
"20190620","1803","56896","6082","0","0.038273692","8.335735","3.6790478","14.521743","-49.830116","6.1097465","-0.17471027","-0.049923345","0.0878743","1002.34","91.23","0.0","0.0","35.07499549","129.08593135","16.97760009765625"
"20190620","1803","56963","6082","0","0.038273692","8.335735","3.6790478","14.843154","-49.502922","4.131346","-0.059396774","-0.019427877","-0.0016862102","1002.34","91.23","0.0","0.0","35.07499549","129.08593135","16.97760009765625"
"20190620","1803","57031","6242","0","0.09595807","9.738858","4.760371","14.843154","-49.502922","4.131346","-0.059396774","-0.019427877","-0.0016862102","1002.34","91.23","0.0","0.0","35.07499549","129.08593135","16.97760009765625"
"20190620","1803","57099","6242","0","0.09595807","9.738858","4.760371","14.843154","-49.502922","4.131346","-0.059396774","-0.019427877","-0.0016862102","1002.34","91.23","0.0","0.0","35.07499549","129.08593135","16.97760009765625"
"20190620","1803","57165","6242","0","0.09595807","9.738858","4.760371","14.816983","-49.07824","4.0508637","-0.022048987","-0.13811904","-0.03622574","1002.35","91.15","0.0","0.0","35.07499549","129.08593135","16.97760009765625"
"20190620","1803","57232","6403","0","0.7895422","8.810827","5.030198","14.816983","-49.07824","4.0508637","-0.022048987","-0.13811904","-0.03622574","1002.35","91.15","0.0","0.0","35.07499549","129.08593135","16.97760009765625"
"20190620","1803","57299","6403","0","0.7895422","8.810827","5.030198","14.816983","-49.07824","4.0508637","-0.022048987","-0.13811904","-0.03622574","1002.35","91.15","0.0","0.0","35.07499549","129.08593135","16.97760009765625"
"20190620","1803","57366","6551","0","0.7895422","8.810827","5.030198","16.057129","-48.425495","3.631186","0.04801755","-0.08024642","-0.15673229","1002.37","90.98","0.0","0.0","35.07499549","129.08593135","16.97760009765625"
"20190620","1803","57433","6551","0","0.4729638","8.185577","4.136618","16.057129","-48.425495","3.631186","0.04801755","-0.08024642","-0.15673229","1002.37","90.98","0.0","0.0","35.07499549","129.08593135","16.97760009765625"
"20190620","1803","57500","6716","0","0.4729638","8.185577","4.136618","16.057129","-48.425495","3.631186","0.04801755","-0.08024642","-0.15673229","1002.37","90.98","0.0","0.0","35.07499549","129.08593135","16.97760009765625"
"20190620","1803","57567","6716","0","0.4729638","8.185577","4.136618","16.315836","-47.82804","4.5725236","0.1896165","0.10766821","-0.016595408","1002.38","90.89","0.0","0.0","35.07499549","129.08593135","16.97760009765625"
"20190620","1803","57635","6716","0","0.4729638","8.185577","4.136618","16.315836","-47.82804","4.5725236","0.1896165","0.10766821","-0.016595408","1002.38","90.89","0.0","0.0","35.07499549","129.08593135","16.97760009765625"
"20190620","1803","57703","6888","0","0.108214304","9.67015","3.8958201","16.315836","-47.82804","4.5725236","0.1896165","0.10766821","-0.016595408","1002.38","90.89","0.0","0.0","35.07499549","129.08593135","16.97760009765625"
"20190620","1803","57770","6888","0","0.108214304","9.67015","3.8958201","15.461756","-47.36446","6.1973844","0.19195893","-0.19845974","0.14575219","1002.36","91.06","0.0","0.0","35.07499549","129.08593135","16.97760009765625"
"20190620","1803","57838","7044","0","0.108214304","9.67015","3.8958201","15.461756","-47.36446","6.1973844","0.19195893","-0.19845974","0.14575219","1002.36","91.06","0.0","0.0","35.07499549","129.08593135","16.97760009765625"
"20190620","1803","57904","7044","0","0.27676934","9.156737","4.504689","15.461756","-47.36446","6.1973844","0.19195893","-0.19845974","0.14575219","1002.36","91.06","0.0","0.0","35.07499549","129.08593135","16.97760009765625"
"20190620","1803","57971","7180","0","0.27676934","9.156737","4.504689","14.690838","-47.20921","7.384999","0.048281666","0.039253544","0.007560681","1002.32","91.4","0.0","0.0","35.07499549","129.08593135","16.97760009765625"
"20190620","1803","58039","7180","0","0.27676934","9.156737","4.504689","14.690838","-47.20921","7.384999","0.048281666","0.039253544","0.007560681","1002.32","91.4","0.0","0.0","35.07499549","129.08593135","16.97760009765625"
"20190620","1803","58106","7180","0","0.6683442","8.57325","4.101809","14.690838","-47.20921","7.384999","-0.0030978816","-0.2091123","-0.10021829","1002.32","91.4","0.0","0.0","35.07499549","129.08593135","16.97760009765625"
"20190620","1803","58173","7345","0","0.6683442","8.57325","4.101809","15.920052","-46.811535","6.9310527","-0.0030978816","-0.2091123","-0.10021829","1002.32","91.4","0.0","0.0","35.07499549","129.08593135","16.97760009765625"
