"DATE","TIME","SEC","RUNTIME(ms)","PTNUM","acceleration X","acceleration Y","acceleration Z","Geomagnetic X","Geomagnetic Y","Geomagnetic Z","gyro X","gyro Y","gyro Z","Pressure(hPa)","Altitude(m)","Temperature","Humidity","GPSLatitude","GPSLongitude","GPSAltitude"
"20190620","1728","45173","0","0","0.5907028","9.561535","2.537352","29.36482","-30.669876","-25.261202","0.07220876","-0.03255336","0.015149455","1001.98","94.25","0.0","0.0","35.07499549","129.08593135","16.97760009765625"
"20190620","1728","45302","1","0","0.5907028","9.561535","2.537352","28.663038","-31.140007","-25.507946","-0.06478539","0.03695742","0.018400054","1001.98","94.25","0.0","0.0","35.07499549","129.08593135","16.97760009765625"
"20190620","1728","45370","1","0","0.7934842","9.484961","2.752961","28.663038","-31.140007","-25.507946","-0.06478539","0.03695742","0.018400054","1001.98","94.25","0.0","0.0","35.07499549","129.08593135","16.97760009765625"
"20190620","1728","45437","163","0","0.7934842","9.484961","2.752961","28.87466","-30.983562","-25.813889","-0.06478539","0.03695742","0.018400054","1001.98","94.25","0.0","0.0","35.07499549","129.08593135","16.97760009765625"
"20190620","1728","45504","163","0","0.5760802","9.559777","2.7370286","28.87466","-30.983562","-25.813889","-0.018607482","-0.0023484684","-0.053556953","1001.98","94.25","0.0","0.0","35.07499549","129.08593135","16.97760009765625"
"20190620","1728","45572","334","0","0.5760802","9.559777","2.7370286","28.87466","-30.983562","-25.813889","-0.018607482","-0.0023484684","-0.053556953","1002.0","94.09","0.0","0.0","35.07499549","129.08593135","16.97760009765625"
"20190620","1728","45639","334","0","0.5760802","9.559777","2.7370286","29.217058","-30.130447","-25.411545","-0.008755063","-0.0029320277","-0.019786555","1002.0","94.09","0.0","0.0","35.07499549","129.08593135","16.97760009765625"
"20190620","1728","45706","490","0","0.57043827","9.557933","2.48813","29.217058","-30.130447","-25.411545","-0.008755063","-0.0029320277","-0.019786555","1001.97","94.34","0.0","0.0","35.07499549","129.08593135","16.97760009765625"
"20190620","1728","45773","490","0","0.57043827","9.557933","2.48813","29.217058","-30.130447","-25.411545","-0.008755063","-0.0029320277","-0.019786555","1001.97","94.34","0.0","0.0","35.07499549","129.08593135","16.97760009765625"
"20190620","1728","45840","490","0","0.57043827","9.557933","2.48813","29.85792","-30.51073","-25.020702","-0.008755063","-0.0029320277","-0.019786555","1001.97","94.34","0.0","0.0","35.07499549","129.08593135","16.97760009765625"
"20190620","1728","45908","654","0","0.57043827","9.557933","2.48813","29.85792","-30.51073","-25.020702","-0.027889155","-0.005303167","-0.013388998","1001.97","94.34","0.0","0.0","35.07499549","129.08593135","16.97760009765625"
"20190620","1728","45975","654","0","0.67003834","9.631719","2.3487763","29.85792","-30.51073","-25.020702","-0.027889155","-0.005303167","-0.013388998","1002.0","94.09","0.0","0.0","35.07499549","129.08593135","16.97760009765625"
"20190620","1728","46042","793","0","0.67003834","9.631719","2.3487763","28.724676","-30.135178","-26.426003","-0.027889155","-0.005303167","-0.013388998","1002.0","94.09","0.0","0.0","35.07499549","129.08593135","16.97760009765625"
"20190620","1728","46110","793","0","0.67003834","9.631719","2.3487763","28.724676","-30.135178","-26.426003","-0.075613774","0.0033802292","0.0796095","1002.0","94.09","0.0","0.0","35.07499549","129.08593135","16.97760009765625"
"20190620","1728","46177","938","0","0.51135737","9.596594","2.393737","28.724676","-30.135178","-26.426003","-0.075613774","0.0033802292","0.0796095","1002.02","93.92","0.0","0.0","35.07499549","129.08593135","16.97760009765625"
"20190620","1728","46245","938","0","0.51135737","9.596594","2.393737","29.6423","-29.894844","-26.334686","-0.075613774","0.0033802292","0.0796095","1002.02","93.92","0.0","0.0","35.07499549","129.08593135","16.97760009765625"
"20190620","1728","46312","1078","0","0.51135737","9.596594","2.393737","29.6423","-29.894844","-26.334686","-0.044882","-0.013875054","-0.03852692","1001.98","94.25","0.0","0.0","35.07499549","129.08593135","16.97760009765625"
"20190620","1728","46380","1078","0","0.37747738","9.614989","2.0379004","28.721502","-29.748974","-26.886848","-0.044882","-0.013875054","-0.03852692","1001.98","94.25","0.0","0.0","35.07499549","129.08593135","16.97760009765625"
"20190620","1728","46448","1078","0","0.37747738","9.614989","2.0379004","28.721502","-29.748974","-26.886848","-0.044882","-0.013875054","-0.03852692","1001.98","94.25","0.0","0.0","35.07499549","129.08593135","16.97760009765625"
"20190620","1728","46515","1251","0","0.37747738","9.614989","2.0379004","28.721502","-29.748974","-26.886848","-0.008504326","-0.062608875","-0.023132542","1002.04","93.75","0.0","0.0","35.07499549","129.08593135","16.97760009765625"
"20190620","1728","46583","1251","0","0.45488256","9.990164","2.2911057","28.721502","-29.748974","-26.886848","-0.008504326","-0.062608875","-0.023132542","1002.04","93.75","0.0","0.0","35.07499549","129.08593135","16.97760009765625"
"20190620","1728","46649","1425","0","0.45488256","9.990164","2.2911057","28.994614","-29.128227","-26.100227","0.0957839","-0.16945282","-0.071334414","1002.04","93.75","0.0","0.0","35.07499549","129.08593135","16.97760009765625"
"20190620","1728","46716","1425","0","0.45488256","9.990164","2.2911057","28.994614","-29.128227","-26.100227","0.0957839","-0.16945282","-0.071334414","1002.02","93.92","0.0","0.0","35.07499549","129.08593135","16.97760009765625"
"20190620","1728","46783","1425","0","0.727357","10.235642","2.6631706","28.994614","-29.128227","-26.100227","0.0957839","-0.16945282","-0.071334414","1002.02","93.92","0.0","0.0","35.07499549","129.08593135","16.97760009765625"
"20190620","1728","46850","1609","0","0.727357","10.235642","2.6631706","29.346556","-29.202076","-25.165964","0.0957839","-0.16945282","-0.071334414","1002.02","93.92","0.0","0.0","35.07499549","129.08593135","16.97760009765625"
"20190620","1728","46917","1609","0","0.727357","10.235642","2.6631706","29.346556","-29.202076","-25.165964","0.027968645","-0.066845074","-0.077347755","1001.95","94.51","0.0","0.0","35.07499549","129.08593135","16.97760009765625"
"20190620","1728","46984","1754","0","0.4000515","8.859174","3.0134957","29.346556","-29.202076","-25.165964","0.027968645","-0.066845074","-0.077347755","1001.95","94.51","0.0","0.0","35.07499549","129.08593135","16.97760009765625"
"20190620","1728","47052","1754","0","0.4000515","8.859174","3.0134957","28.131609","-28.131828","-25.865509","0.027968645","-0.066845074","-0.077347755","1001.95","94.51","0.0","0.0","35.07499549","129.08593135","16.97760009765625"
"20190620","1728","47119","1754","0","0.4000515","8.859174","3.0134957","28.131609","-28.131828","-25.865509","-0.016932981","-0.0012234244","0.008566693","1001.97","94.34","0.0","0.0","35.07499549","129.08593135","16.97760009765625"
"20190620","1728","47187","1907","0","0.2719344","8.881415","2.2949212","28.131609","-28.131828","-25.865509","-0.016932981","-0.0012234244","0.008566693","1001.97","94.34","0.0","0.0","35.07499549","129.08593135","16.97760009765625"
"20190620","1728","47253","1907","0","0.2719344","8.881415","2.2949212","28.289206","-29.366577","-26.111439","-0.016932981","-0.0012234244","0.008566693","1001.97","94.34","0.0","0.0","35.07499549","129.08593135","16.97760009765625"
"20190620","1728","47320","2048","0","0.2719344","8.881415","2.2949212","28.289206","-29.366577","-26.111439","-0.087614164","0.15723628","0.01911396","1001.97","94.34","0.0","0.0","35.07499549","129.08593135","16.97760009765625"
"20190620","1728","47388","2048","0","0.7066084","10.7743435","3.031199","28.289206","-29.366577","-26.111439","-0.087614164","0.15723628","0.01911396","1001.97","94.34","0.0","0.0","35.07499549","129.08593135","16.97760009765625"
"20190620","1728","47455","2213","0","0.7066084","10.7743435","3.031199","29.852072","-29.969994","-25.24694","-0.087614164","0.15723628","0.01911396","1001.97","94.34","0.0","0.0","35.07499549","129.08593135","16.97760009765625"
"20190620","1728","47523","2213","0","0.7066084","10.7743435","3.031199","29.852072","-29.969994","-25.24694","0.1329477","0.02301483","0.022523962","1001.97","94.34","0.0","0.0","35.07499549","129.08593135","16.97760009765625"
"20190620","1728","47589","2367","0","-0.070626274","9.469267","3.0761845","27.93825","-29.75608","-25.654804","0.1329477","0.02301483","0.022523962","1001.97","94.34","0.0","0.0","35.07499549","129.08593135","16.97760009765625"
"20190620","1728","47656","2367","0","-0.070626274","9.469267","3.0761845","27.93825","-29.75608","-25.654804","0.1329477","0.02301483","0.022523962","1001.97","94.34","0.0","0.0","35.07499549","129.08593135","16.97760009765625"
"20190620","1728","47723","2367","0","-0.070626274","9.469267","3.0761845","27.93825","-29.75608","-25.654804","-0.001968881","-0.004680273","0.124470845","1001.98","94.25","0.0","0.0","35.07499549","129.08593135","16.97760009765625"
"20190620","1728","47790","2509","0","0.3726903","8.282304","1.8108866","27.93825","-29.75608","-25.654804","-0.001968881","-0.004680273","0.124470845","1001.98","94.25","0.0","0.0","35.07499549","129.08593135","16.97760009765625"
"20190620","1728","47857","2509","0","0.3726903","8.282304","1.8108866","27.10557","-31.23175","-25.449821","-0.024720807","0.14255662","0.0024486994","1001.98","94.25","0.0","0.0","35.07499549","129.08593135","16.97760009765625"
"20190620","1728","47924","2670","0","0.3726903","8.282304","1.8108866","27.10557","-31.23175","-25.449821","-0.024720807","0.14255662","0.0024486994","1001.97","94.34","0.0","0.0","35.07499549","129.08593135","16.97760009765625"
"20190620","1728","47992","2670","0","0.5696361","10.595111","2.7622273","26.67171","-30.849297","-24.208921","-0.024720807","0.14255662","0.0024486994","1001.97","94.34","0.0","0.0","35.07499549","129.08593135","16.97760009765625"
"20190620","1728","48059","2823","0","0.5696361","10.595111","2.7622273","26.67171","-30.849297","-24.208921","-0.024720807","0.14255662","0.0024486994","1001.97","94.34","0.0","0.0","35.07499549","129.08593135","16.97760009765625"
"20190620","1728","48126","2823","0","0.5696361","10.595111","2.7622273","26.67171","-30.849297","-24.208921","0.27674812","-0.054622382","-0.16607517","1001.97","94.34","0.0","0.0","35.07499549","129.08593135","16.97760009765625"
"20190620","1728","48193","2823","0","0.26844847","10.08651","2.9784076","26.458021","-30.774017","-24.132938","0.27674812","-0.054622382","-0.16607517","1001.97","94.34","0.0","0.0","35.07499549","129.08593135","16.97760009765625"
"20190620","1728","48261","2988","0","0.26844847","10.08651","2.9784076","26.458021","-30.774017","-24.132938","0.27674812","-0.054622382","-0.16607517","1001.97","94.34","0.0","0.0","35.07499549","129.08593135","16.97760009765625"
"20190620","1728","48329","2988","0","0.26844847","10.08651","2.9784076","26.458021","-30.774017","-24.132938","-0.13726732","-0.15608734","0.031372365","1001.99","94.17","0.0","0.0","35.07499549","129.08593135","16.97760009765625"
"20190620","1728","48395","3147","0","0.58633125","8.333036","2.0359364","27.441856","-29.83789","-25.19614","-0.13726732","-0.15608734","0.031372365","1001.99","94.17","0.0","0.0","35.07499549","129.08593135","16.97760009765625"
"20190620","1728","48463","3147","0","0.58633125","8.333036","2.0359364","27.441856","-29.83789","-25.19614","-0.13726732","-0.15608734","0.031372365","1001.99","94.17","0.0","0.0","35.07499549","129.08593135","16.97760009765625"
"20190620","1728","48530","3300","0","0.58633125","8.333036","2.0359364","27.441856","-29.83789","-25.19614","-0.13258095","0.18293417","0.016140006","1001.99","94.17","0.0","0.0","35.07499549","129.08593135","16.97760009765625"
"20190620","1728","48596","3300","0","0.8512734","9.846512","2.5307262","28.848362","-29.052166","-25.01484","-0.13258095","0.18293417","0.016140006","1001.99","94.17","0.0","0.0","35.07499549","129.08593135","16.97760009765625"
"20190620","1728","48663","3300","0","0.8512734","9.846512","2.5307262","28.848362","-29.052166","-25.01484","-0.13258095","0.18293417","0.016140006","1001.99","94.17","0.0","0.0","35.07499549","129.08593135","16.97760009765625"
"20190620","1728","48731","3456","0","0.8512734","9.846512","2.5307262","28.848362","-29.052166","-25.01484","0.14619777","0.22378843","-0.12697722","1001.98","94.25","0.0","0.0","35.07499549","129.08593135","16.97760009765625"
"20190620","1728","48798","3456","0","-0.3370552","10.584235","3.7196434","29.202269","-29.43496","-23.541218","0.14619777","0.22378843","-0.12697722","1001.98","94.25","0.0","0.0","35.07499549","129.08593135","16.97760009765625"
"20190620","1728","48866","3623","0","-0.3370552","10.584235","3.7196434","29.202269","-29.43496","-23.541218","0.14619777","0.22378843","-0.12697722","1001.98","94.25","0.0","0.0","35.07499549","129.08593135","16.97760009765625"
"20190620","1728","48933","3623","0","-0.3370552","10.584235","3.7196434","29.202269","-29.43496","-23.541218","-0.058185197","-0.12905547","0.1810503","1002.01","94.0","0.0","0.0","35.07499549","129.08593135","16.97760009765625"
"20190620","1728","49001","3784","0","0.43696323","8.189585","2.1156495","28.015062","-30.605038","-24.345295","-0.058185197","-0.12905547","0.1810503","1002.01","94.0","0.0","0.0","35.07499549","129.08593135","16.97760009765625"
"20190620","1728","49068","3784","0","0.43696323","8.189585","2.1156495","28.015062","-30.605038","-24.345295","-0.058185197","-0.12905547","0.1810503","1002.01","94.0","0.0","0.0","35.07499549","129.08593135","16.97760009765625"
"20190620","1728","49135","3784","0","0.43696323","8.189585","2.1156495","28.015062","-30.605038","-24.345295","-0.05035665","-0.05576327","-0.041162323","1001.98","94.25","0.0","0.0","35.07499549","129.08593135","16.97760009765625"
"20190620","1728","49202","3947","0","-0.025490021","9.694394","2.0018373","27.86593","-29.911125","-24.648941","-0.05035665","-0.05576327","-0.041162323","1001.98","94.25","0.0","0.0","35.07499549","129.08593135","16.97760009765625"
"20190620","1728","49269","3947","0","-0.025490021","9.694394","2.0018373","27.86593","-29.911125","-24.648941","-0.05035665","-0.05576327","-0.041162323","1001.98","94.25","0.0","0.0","35.07499549","129.08593135","16.97760009765625"
"20190620","1728","49336","4082","0","-0.025490021","9.694394","2.0018373","27.86593","-29.911125","-24.648941","0.055955704","0.08373475","-0.061028324","1001.97","94.34","0.0","0.0","35.07499549","129.08593135","16.97760009765625"
"20190620","1728","49403","4082","0","0.5174498","11.146167","3.9210153","28.427368","-29.442352","-24.79179","0.055955704","0.08373475","-0.061028324","1001.97","94.34","0.0","0.0","35.07499549","129.08593135","16.97760009765625"
"20190620","1728","49470","4237","0","0.5174498","11.146167","3.9210153","28.427368","-29.442352","-24.79179","0.055955704","0.08373475","-0.061028324","1001.97","94.34","0.0","0.0","35.07499549","129.08593135","16.97760009765625"
"20190620","1728","49538","4237","0","0.5174498","11.146167","3.9210153","28.427368","-29.442352","-24.79179","-0.011050335","-0.08441537","-0.041426323","1001.95","94.51","0.0","0.0","35.07499549","129.08593135","16.97760009765625"
"20190620","1728","49604","4237","0","0.3354383","7.8088913","2.2596385","28.565777","-28.90039","-25.792166","-0.011050335","-0.08441537","-0.041426323","1001.95","94.51","0.0","0.0","35.07499549","129.08593135","16.97760009765625"
"20190620","1728","49671","4409","0","0.3354383","7.8088913","2.2596385","28.565777","-28.90039","-25.792166","-0.011050335","-0.08441537","-0.041426323","1001.95","94.51","0.0","0.0","35.07499549","129.08593135","16.97760009765625"
"20190620","1728","49739","4409","0","0.3354383","7.8088913","2.2596385","28.565777","-28.90039","-25.792166","-0.0780031","-0.008034211","0.030533392","1001.95","94.51","0.0","0.0","35.07499549","129.08593135","16.97760009765625"
"20190620","1728","49807","4585","0","0.5889046","9.638651","2.2062259","28.559114","-28.591286","-24.93505","-0.0780031","-0.008034211","0.030533392","1001.95","94.51","0.0","0.0","35.07499549","129.08593135","16.97760009765625"
"20190620","1728","49874","4585","0","0.5889046","9.638651","2.2062259","28.559114","-28.591286","-24.93505","-0.0780031","-0.008034211","0.030533392","1001.95","94.51","0.0","0.0","35.07499549","129.08593135","16.97760009765625"
"20190620","1728","49942","4585","0","0.5889046","9.638651","2.2062259","28.559114","-28.591286","-24.93505","0.019445337","0.11067528","-0.07558777","1001.97","94.34","0.0","0.0","35.07499549","129.08593135","16.97760009765625"
"20190620","1728","50009","4750","0","-0.15607187","10.691152","3.9639392","30.24582","-27.571152","-24.67001","0.019445337","0.11067528","-0.07558777","1001.97","94.34","0.0","0.0","35.07499549","129.08593135","16.97760009765625"
"20190620","1728","50076","4750","0","-0.15607187","10.691152","3.9639392","30.24582","-27.571152","-24.67001","0.019445337","0.11067528","-0.07558777","1001.97","94.34","0.0","0.0","35.07499549","129.08593135","16.97760009765625"
"20190620","1728","50143","4918","0","-0.15607187","10.691152","3.9639392","30.24582","-27.571152","-24.67001","-0.053046416","0.015495054","0.07003445","1001.95","94.51","0.0","0.0","35.07499549","129.08593135","16.97760009765625"
"20190620","1728","50210","4918","0","-0.19160253","8.108405","2.5897665","30.243074","-27.262184","-24.976618","-0.053046416","0.015495054","0.07003445","1001.95","94.51","0.0","0.0","35.07499549","129.08593135","16.97760009765625"
"20190620","1728","50277","5044","0","-0.19160253","8.108405","2.5897665","30.243074","-27.262184","-24.976618","-0.053046416","0.015495054","0.07003445","1001.95","94.51","0.0","0.0","35.07499549","129.08593135","16.97760009765625"
"20190620","1728","50345","5044","0","-0.19160253","8.108405","2.5897665","30.101711","-27.031853","-25.906498","-0.078506984","0.031209096","0.035787147","1001.97","94.34","0.0","0.0","35.07499549","129.08593135","16.97760009765625"
"20190620","1728","50413","5044","0","-0.21616352","9.738554","2.4213147","30.101711","-27.031853","-25.906498","-0.078506984","0.031209096","0.035787147","1001.97","94.34","0.0","0.0","35.07499549","129.08593135","16.97760009765625"
"20190620","1728","50479","5201","0","-0.21616352","9.738554","2.4213147","30.101711","-27.031853","-25.906498","-0.078506984","0.031209096","0.035787147","1001.97","94.34","0.0","0.0","35.07499549","129.08593135","16.97760009765625"
"20190620","1728","50546","5201","0","-0.21616352","9.738554","2.4213147","30.101711","-27.031853","-25.906498","0.09193443","0.105725676","-0.08282901","1001.97","94.34","0.0","0.0","35.07499549","129.08593135","16.97760009765625"
"20190620","1728","50614","5353","0","0.2686492","10.868249","4.2578025","30.723003","-25.94429","-25.032507","0.09193443","0.105725676","-0.08282901","1001.97","94.34","0.0","0.0","35.07499549","129.08593135","16.97760009765625"
"20190620","1728","50681","5353","0","0.2686492","10.868249","4.2578025","30.723003","-25.94429","-25.032507","0.09193443","0.105725676","-0.08282901","1001.97","94.34","0.0","0.0","35.07499549","129.08593135","16.97760009765625"
"20190620","1728","50748","5508","0","0.2686492","10.868249","4.2578025","30.723003","-25.94429","-25.032507","-0.02945311","-0.22136207","0.023591727","1001.97","94.34","0.0","0.0","35.07499549","129.08593135","16.97760009765625"
"20190620","1728","50815","5508","0","0.33898062","7.714176","1.8485806","30.372074","-26.102139","-25.426487","-0.02945311","-0.22136207","0.023591727","1001.97","94.34","0.0","0.0","35.07499549","129.08593135","16.97760009765625"
"20190620","1728","50883","5657","0","0.33898062","7.714176","1.8485806","30.372074","-26.102139","-25.426487","-0.02945311","-0.22136207","0.023591727","1001.97","94.34","0.0","0.0","35.07499549","129.08593135","16.97760009765625"
"20190620","1728","50949","5657","0","0.33898062","7.714176","1.8485806","30.632334","-23.85934","-26.715057","-0.22323443","0.03788984","0.06583453","1001.96","94.42","0.0","0.0","35.07499549","129.08593135","16.97760009765625"
"20190620","1728","51016","5796","0","0.59385496","9.771509","3.154443","30.632334","-23.85934","-26.715057","-0.22323443","0.03788984","0.06583453","1001.96","94.42","0.0","0.0","35.07499549","129.08593135","16.97760009765625"
"20190620","1728","51084","5796","0","0.59385496","9.771509","3.154443","30.632334","-23.85934","-26.715057","-0.22323443","0.03788984","0.06583453","1001.96","94.42","0.0","0.0","35.07499549","129.08593135","16.97760009765625"
"20190620","1728","51150","5796","0","0.59385496","9.771509","3.154443","30.632334","-23.85934","-26.715057","-0.22323443","0.03788984","0.06583453","1001.97","94.34","0.0","0.0","35.07499549","129.08593135","16.97760009765625"
"20190620","1728","51218","5948","0","-0.4766519","10.476446","4.942903","30.856441","-24.7844","-26.801266","0.0063823136","0.1440981","-0.0076144245","1001.97","94.34","0.0","0.0","35.07499549","129.08593135","16.97760009765625"
"20190620","1728","51284","5948","0","-0.4766519","10.476446","4.942903","30.856441","-24.7844","-26.801266","0.0063823136","0.1440981","-0.0076144245","1001.97","94.34","0.0","0.0","35.07499549","129.08593135","16.97760009765625"
"20190620","1728","51352","6122","0","-0.4766519","10.476446","4.942903","29.215292","-24.721916","-23.483692","0.18433379","0.06622879","0.1383809","1001.98","94.25","0.0","0.0","35.07499549","129.08593135","16.97760009765625"
"20190620","1728","51419","6122","0","0.16983138","7.6873474","2.2332058","29.215292","-24.721916","-23.483692","0.18433379","0.06622879","0.1383809","1001.98","94.25","0.0","0.0","35.07499549","129.08593135","16.97760009765625"
"20190620","1728","51486","6122","0","0.16983138","7.6873474","2.2332058","29.215292","-24.721916","-23.483692","0.18433379","0.06622879","0.1383809","1001.98","94.25","0.0","0.0","35.07499549","129.08593135","16.97760009765625"
"20190620","1728","51553","6271","0","0.16983138","7.6873474","2.2332058","29.860065","-25.102333","-24.256577","0.18433379","0.06622879","0.1383809","1001.97","94.34","0.0","0.0","35.07499549","129.08593135","16.97760009765625"
"20190620","1728","51621","6271","0","0.16983138","7.6873474","2.2332058","29.860065","-25.102333","-24.256577","-0.12997302","0.123221874","0.030790277","1001.97","94.34","0.0","0.0","35.07499549","129.08593135","16.97760009765625"
"20190620","1728","51688","6409","0","0.45193124","10.059506","3.13354","29.860065","-25.102333","-24.256577","-0.12997302","0.123221874","0.030790277","1001.97","94.34","0.0","0.0","35.07499549","129.08593135","16.97760009765625"
"20190620","1728","51755","6409","0","0.45193124","10.059506","3.13354","29.797316","-25.952686","-23.569403","0.11663486","-0.09446356","-0.046706866","1001.98","94.25","0.0","0.0","35.07499549","129.08593135","16.97760009765625"
"20190620","1728","51822","6563","0","0.5624606","10.026265","4.8750105","29.797316","-25.952686","-23.569403","0.11663486","-0.09446356","-0.046706866","1001.98","94.25","0.0","0.0","35.07499549","129.08593135","16.97760009765625"
"20190620","1728","51889","6563","0","0.5624606","10.026265","4.8750105","29.797316","-25.952686","-23.569403","0.11663486","-0.09446356","-0.046706866","1001.98","94.25","0.0","0.0","35.07499549","129.08593135","16.97760009765625"
"20190620","1728","51957","6696","0","0.5624606","10.026265","4.8750105","28.38621","-26.661034","-22.66363","0.14389843","-0.2165814","-0.12494729","1001.99","94.17","0.0","0.0","35.07499549","129.08593135","16.97760009765625"
"20190620","1728","52024","6696","0","0.28527534","7.9449058","1.8996433","28.38621","-26.661034","-22.66363","0.14389843","-0.2165814","-0.12494729","1001.99","94.17","0.0","0.0","35.07499549","129.08593135","16.97760009765625"
"20190620","1728","52092","6845","0","0.28527534","7.9449058","1.8996433","28.38621","-26.661034","-22.66363","0.14389843","-0.2165814","-0.12494729","1001.99","94.17","0.0","0.0","35.07499549","129.08593135","16.97760009765625"
"20190620","1728","52159","6845","0","0.28527534","7.9449058","1.8996433","29.792387","-25.720856","-22.945961","0.14389843","-0.2165814","-0.12494729","1002.0","94.09","0.0","0.0","35.07499549","129.08593135","16.97760009765625"
"20190620","1728","52227","6987","0","0.15582636","10.224","3.0096796","29.792387","-25.720856","-22.945961","-0.13626648","0.12696725","-0.074559554","1002.0","94.09","0.0","0.0","35.07499549","129.08593135","16.97760009765625"
"20190620","1728","52294","6987","0","0.15582636","10.224","3.0096796","29.792387","-25.720856","-22.945961","-0.13626648","0.12696725","-0.074559554","1002.0","94.09","0.0","0.0","35.07499549","129.08593135","16.97760009765625"
"20190620","1728","52361","6987","0","0.15582636","10.224","3.0096796","30.587326","-27.64463","-20.632473","0.2733267","0.24659753","0.12682928","1001.97","94.34","0.0","0.0","35.07499549","129.08593135","16.97760009765625"
"20190620","1728","52429","7158","0","-0.5988932","9.8986025","4.073123","30.587326","-27.64463","-20.632473","0.2733267","0.24659753","0.12682928","1001.97","94.34","0.0","0.0","35.07499549","129.08593135","16.97760009765625"
"20190620","1728","52496","7158","0","-0.5988932","9.8986025","4.073123","30.587326","-27.64463","-20.632473","0.2733267","0.24659753","0.12682928","1001.97","94.34","0.0","0.0","35.07499549","129.08593135","16.97760009765625"
"20190620","1728","52563","7303","0","-0.5988932","9.8986025","4.073123","29.566751","-31.594154","-18.752954","0.09100622","-0.1837678","0.14477976","1002.0","94.09","0.0","0.0","35.07499549","129.08593135","16.97760009765625"
"20190620","1728","52630","7303","0","0.4425497","9.092516","3.402628","29.566751","-31.594154","-18.752954","0.09100622","-0.1837678","0.14477976","1002.0","94.09","0.0","0.0","35.07499549","129.08593135","16.97760009765625"
"20190620","1728","52697","7465","0","0.4425497","9.092516","3.402628","29.566751","-31.594154","-18.752954","0.09100622","-0.1837678","0.14477976","1002.0","94.09","0.0","0.0","35.07499549","129.08593135","16.97760009765625"
"20190620","1728","52764","7465","0","0.4425497","9.092516","3.402628","27.372103","-31.07409","-21.022434","0.006583087","-0.45924315","0.003527021","1001.97","94.34","0.0","0.0","35.07499549","129.08593135","16.97760009765625"
"20190620","1728","52832","7465","0","0.8236068","9.050677","2.880764","27.372103","-31.07409","-21.022434","0.006583087","-0.45924315","0.003527021","1001.97","94.34","0.0","0.0","35.07499549","129.08593135","16.97760009765625"
"20190620","1728","52898","7645","0","0.8236068","9.050677","2.880764","27.372103","-31.07409","-21.022434","0.006583087","-0.45924315","0.003527021","1001.97","94.34","0.0","0.0","35.07499549","129.08593135","16.97760009765625"
"20190620","1728","52965","7645","0","0.8236068","9.050677","2.880764","28.705902","-29.285118","-23.933165","-0.103419006","-0.30208924","-0.25308713","1001.99","94.17","0.0","0.0","35.07499549","129.08593135","16.97760009765625"
"20190620","1728","53032","7782","0","0.08614652","9.448565","2.6279454","28.705902","-29.285118","-23.933165","-0.103419006","-0.30208924","-0.25308713","1001.99","94.17","0.0","0.0","35.07499549","129.08593135","16.97760009765625"
